Folder: storage/npm

Note: npm/ads.txt
1512104400,474049,
1514782800,477054,
1517461200,480687,
1519880400,484000,
1522555200,487849,
1525147200,491603,
1527825600,495532,1
1530417600,499708,2
1533096000,504020,3
1535774400,508173,4
1538366400,512400,5
1541044800,516503,6
1543640400,521194,7
1546318800,524933,8
1548997200,529516,9
1551416400,129089,
1554091200,132232,
1556683200,135144,
1559361600,138270,
1561953600,140983,
1564632000,143829,1
1567310400,146655,2
1569902400,149693,3
1572580800,152481,4
1575176400,155124,5
1577854800,157944,6
1580533200,160791,7
1583038800,163294,8
1585713600,166278,9
1588305600,169413,10
1590984000,172493,11
1593576000,175178,12
1596254400,177910,13
1598932800,180792,14
1601524800,183574,15
1604203200,186163,16
1606798800,188600,17
1609477200,191372,18
1612155600,194407,19
1614574800,197133,20
1617249600,202068,21
1619841600,206076,22
1622520000,209693,23
1625112000,216142,24
1627790400,219407,25

Note: npm/anand93.json
1625112000,1341769,
1627790400,1346389,

Note: npm/apex-scrape-package.json
1522555200,535714,
1525147200,539169,
1527825600,542840,
1530417600,546851,
1533096000,550994,
1535774400,555031,
1538366400,559107,1
1541044800,563123,2
1543640400,567776,3
1546318800,571422,4
1548997200,575919,5
1551416400,580407,6
1554091200,585700,7
1556683200,590582,8
1559361600,595524,9
1561953600,600188,10
1564632000,605056,11
1567310400,609798,12
1569902400,614676,13
1572580800,619461,14
1575176400,624268,15
1577854800,629035,16
1580533200,633953,17
1583038800,638428,18
1585713600,643807,19
1588305600,649184,20
1590984000,654797,21
1593576000,659901,22
1596254400,665184,23
1598932800,670338,24
1601524800,675613,25
1604203200,681346,26
1606798800,687817,27

Note: npm/app.json
1451624400,49825,
1454302800,52049,
1456808400,54277,
1459483200,56844,
1462075200,59296,
1464753600,61738,
1467345600,63959,1
1470024000,66311,2
1472702400,68693,3
1475294400,70979,4
1477972800,73461,5
1480568400,75709,6
1483246800,77948,7
1485925200,80243,8
1488344400,82880,9
1491019200,85803,10
1493611200,88483,11
1496289600,91311,12
1498881600,94232,13
1501560000,97173,14
1504238400,99908,15
1506830400,102461,16
1509508800,105363,17
1512104400,108234,18
1514782800,111148,19
1517461200,70984,
1519880400,72817,
1522555200,74858,
1525147200,76911,
1527825600,78898,
1530417600,80917,1
1533096000,82852,2
1535774400,91163,
1538366400,93261,
1541044800,95304,
1543640400,97843,
1546318800,99897,
1548997200,102238,1
1551416400,104486,2
1554091200,107093,3
1556683200,109370,4
1559361600,111944,5
1561953600,114109,6
1564632000,116414,7
1567310400,118641,8
1569902400,121128,9
1572580800,123457,10
1575176400,125729,11
1577854800,128069,12
1580533200,130401,13
1583038800,132378,14
1585713600,134756,15
1588305600,137201,16
1590984000,139818,17
1593576000,142048,18
1596254400,144436,19
1598932800,146771,20
1601524800,149062,21
1604203200,151145,22
1606798800,153207,23
1609477200,155444,24
1612155600,157912,25
1614574800,160242,26
1617249600,164639,27
1619841600,168092,28
1622520000,171079,29
1625112000,176218,30

Note: npm/ar.tanzil.quran-simple.txt
1448946000,176207,
1451624400,178353,
1454302800,180604,
1456808400,182982,
1459483200,186053,
1462075200,188864,
1464753600,191664,1
1467345600,194170,2
1470024000,197034,3
1472702400,199949,4
1475294400,202855,5
1477972800,205945,6
1480568400,208776,7
1483246800,211797,8
1485925200,214680,9
1488344400,218001,10
1491019200,221621,11
1493611200,225151,12
1496289600,228779,13
1498881600,232808,14
1501560000,236781,15
1504238400,240587,16
1506830400,244072,17
1509508800,248272,18
1512104400,252271,19
1514782800,256317,20
1517461200,261016,21
1519880400,265011,22
1522555200,269585,23
1525147200,273984,24
1527825600,278485,25
1530417600,283172,26
1533096000,288145,27
1535774400,292813,28
1538366400,297449,29
1541044800,302002,30
1543640400,307170,31
1546318800,311267,32
1548997200,316198,33
1551416400,321113,34
1554091200,326753,35
1556683200,331964,36
1559361600,337258,37
1561953600,342158,38
1564632000,347347,39
1567310400,352366,40
1569902400,357482,41
1572580800,362470,42
1575176400,367469,43
1577854800,372438,44
1580533200,377545,45
1583038800,382195,46
1585713600,387750,47
1588305600,393301,48
1590984000,399076,49
1593576000,404368,50
1596254400,409830,51
1598932800,415130,52
1601524800,420562,53
1604203200,426421,54
1606798800,433019,55

Note: npm/base.json
1617249600,1277086,
1619841600,1282286,
1622520000,1287302,

Note: npm/blear.polyfills.json
1464753600,62563,
1467345600,56682,
1470024000,54051,
1472702400,55938,
1475294400,53944,
1477972800,55787,
1480568400,57518,
1483246800,55921,
1485925200,57480,
1488344400,59247,
1491019200,61366,
1493611200,63395,
1496289600,65274,1
1498881600,67285,2
1501560000,74442,
1504238400,76559,
1506830400,78123,1
1509508800,80423,
1512104400,82515,
1514782800,84179,1
1517461200,86782,2
1519880400,89066,3
1522555200,90754,4
1525147200,92913,5
1527825600,94942,6
1530417600,98020,7
1533096000,100474,8
1535774400,69489,
1538366400,70140,
1541044800,71167,
1543640400,70288,
1546318800,71778,
1548997200,73427,
1551416400,75110,
1554091200,76893,
1556683200,78570,1
1559361600,80414,2
1561953600,81482,3
1564632000,83090,4
1567310400,84642,5
1569902400,86293,6
1572580800,87878,7
1575176400,89501,8
1577854800,91195,9
1580533200,92788,10
1583038800,94345,11
1585713600,96128,12
1588305600,97888,13
1590984000,99758,14
1593576000,101309,15
1596254400,102884,16
1598932800,104511,17
1601524800,106120,18
1604203200,107578,19
1606798800,109032,20
1609477200,110586,21
1612155600,112320,22
1614574800,113938,23
1617249600,117460,24
1619841600,120120,25
1622520000,122272,26
1625112000,125881,27
1627790400,127893,28

Note: npm/blear.utils.json
1464753600,62562,
1467345600,56681,
1470024000,54050,
1472702400,55937,
1475294400,53943,
1477972800,55786,
1480568400,57517,
1483246800,10984,
1485925200,11240,
1488344400,11620,
1491019200,12042,
1493611200,11859,
1496289600,12173,
1498881600,12522,
1501560000,12847,
1504238400,13204,
1506830400,13333,1
1509508800,13809,2
1512104400,14200,3
1514782800,14442,4
1517461200,14856,5
1519880400,15231,6
1522555200,15620,7
1525147200,17238,
1527825600,17528,
1530417600,17842,
1533096000,18227,
1535774400,17089,
1538366400,17266,
1541044800,17561,
1543640400,17815,
1546318800,18143,
1548997200,18516,1
1551416400,18935,2
1554091200,19390,3
1556683200,19791,4
1559361600,20254,5
1561953600,20443,6
1564632000,21022,7
1567310400,21402,8
1569902400,21794,9
1572580800,22180,10
1575176400,22675,11
1577854800,23134,12
1580533200,23519,13
1583038800,23897,14
1585713600,24305,15
1588305600,24754,16
1590984000,25200,17
1593576000,25576,18
1596254400,25974,19
1598932800,26370,20
1601524800,26775,21
1604203200,27139,22
1606798800,27463,23
1609477200,27812,24
1612155600,28163,25
1614574800,28498,26
1617249600,30527,
1619841600,31624,
1622520000,32244,
1625112000,33440,1

Note: npm/blog.md
1451624400,66162,
1454302800,69122,
1456808400,72127,
1459483200,75657,
1462075200,78975,
1464753600,82234,
1467345600,85107,1
1470024000,88332,2
1472702400,91656,3
1475294400,94870,4
1477972800,98242,5
1480568400,101338,6
1483246800,104573,7
1485925200,107652,8
1488344400,111196,9
1491019200,115049,10
1493611200,118787,11
1496289600,122580,12
1498881600,126770,13
1501560000,130904,14
1504238400,134897,15
1506830400,138481,16
1509508800,142884,17
1512104400,146978,18
1514782800,151098,19
1517461200,155898,20
1519880400,159970,21
1522555200,164605,22
1525147200,169083,23
1527825600,173655,24
1530417600,178406,25
1533096000,183443,26
1535774400,188173,27
1538366400,192850,28
1541044800,197412,29
1543640400,202604,30
1546318800,206762,31
1548997200,211713,32
1551416400,216623,33
1554091200,222298,34
1556683200,227332,35
1559361600,232595,36
1561953600,237449,37
1564632000,242627,38
1567310400,247690,39
1569902400,252757,40
1572580800,257744,41
1575176400,262718,42
1577854800,267694,43
1580533200,272756,44
1583038800,277307,45
1585713600,282749,46
1588305600,288153,47
1590984000,293703,48
1593576000,298868,49
1596254400,304122,50
1598932800,309213,51
1601524800,314481,52
1604203200,319337,53
1606798800,324109,54
1609477200,329026,55
1612155600,334347,56
1614574800,339389,57
1617249600,346962,58
1619841600,353501,59
1622520000,359498,60
1625112000,371241,61

File: dsc-polymer-carousel
1488344400,341813,
1491019200,344627,
1493611200,347528,
1496289600,350554,
1498881600,354028,
1501560000,357471,
1504238400,360880,1
1506830400,363980,2
1509508800,367719,3
1512104400,371354,4
1514782800,375008,5
1517461200,379309,6
1519880400,383047,7
1522555200,387375,8
1525147200,391481,9
1527825600,395723,10
1530417600,400191,11
1533096000,404794,12
1535774400,409200,13
1538366400,413658,14
1541044800,417951,15
1543640400,422877,16
1546318800,426809,17
1548997200,431583,18
1551416400,436284,19
1554091200,441770,20
1556683200,446669,21
1559361600,451765,22
1561953600,456522,23
1564632000,461557,24
1567310400,466465,25
1569902400,471423,26
1572580800,476302,27
1575176400,481163,28
1577854800,486041,29
1580533200,490985,30
1583038800,495455,31
1585713600,500815,32
1588305600,506112,33
1590984000,511574,34
1593576000,516651,35
1596254400,521816,36
1598932800,526803,37
1601524800,531974,38
1604203200,536757,39
1606798800,541449,40
1609477200,546292,41
1612155600,551536,42
1614574800,556537,43
1617249600,564059,44
1619841600,570517,45
1622520000,576455,46
1625112000,588072,47
1627790400,593517,48

File: tga
1488344400,44053,
1491019200,45554,
1493611200,46885,
1496289600,48248,
1498881600,49668,
1501560000,27783,
1504238400,28570,
1506830400,29262,
1509508800,30099,
1512104400,21430,
1514782800,22032,
1517461200,22595,
1519880400,23191,
1522555200,23743,
1525147200,24380,1
1527825600,24927,2
1530417600,25574,3
1533096000,23384,
1535774400,29529,
1538366400,30250,
1541044800,30890,
1543640400,31592,
1546318800,30198,
1548997200,30870,
1551416400,31639,
1554091200,32388,
1556683200,33095,
1559361600,33836,1
1561953600,34476,2
1564632000,35160,3
1567310400,35849,4
1569902400,36545,5
1572580800,37208,6
1575176400,37217,7
1577854800,37898,8
1580533200,38536,9
1583038800,39107,10
1585713600,39773,11
1588305600,40444,12
1590984000,41226,13
1593576000,41881,14
1596254400,42539,15
1598932800,43150,16
1601524800,43821,17
1604203200,44404,18
1606798800,44990,19
1609477200,45596,20
1612155600,46291,21
1614574800,46905,22
1617249600,46274,
1619841600,47597,
1622520000,48492,
1625112000,48021,
1627790400,48735,

File: tga-client-sdk
1535774400,631453,
1538366400,635003,
1541044800,638715,
1543640400,643027,
1546318800,646430,
1548997200,650683,
1551416400,654901,1
1554091200,659944,2
1556683200,664627,3
1559361600,669418,4
1561953600,673939,5
1564632000,678653,6
1567310400,683264,7
1569902400,688010,8
1572580800,692645,9
1575176400,697325,10
1577854800,701998,11
1580533200,706813,12
1583038800,711212,13
1585713600,716500,14
1588305600,721786,15
1590984000,727338,16
1593576000,732366,17
1596254400,737590,18
1598932800,742686,19
1601524800,747917,20
1604203200,753599,21
1606798800,759995,22

File: tga-js
1551416400,746451,
1554091200,750778,
1556683200,755007,
1559361600,759386,
1561953600,763573,
1564632000,767968,
1567310400,772317,1
1569902400,776866,2
1572580800,781302,3
1575176400,785823,4
1577854800,790342,5
1580533200,794997,6
1583038800,799266,7
1585713600,804408,8
1588305600,809563,9
1590984000,814943,10
1593576000,819875,11
1596254400,824997,12
1598932800,830034,13
1601524800,835169,14
1604203200,239548,0
1606798800,244746,0

File: tga-loader
1512104400,474526,
1514782800,477603,
1517461200,481289,
1519880400,484629,
1522555200,488510,
1525147200,492294,
1527825600,496266,1
1530417600,500486,2
1533096000,504855,3
1535774400,509052,4
1538366400,513316,5
1541044800,517496,6
1543640400,522228,7
1546318800,525980,8
1548997200,530597,9
1551416400,535182,10
1554091200,540572,11
1556683200,545528,12
1559361600,550541,13
1561953600,555276,14
1564632000,560242,15
1567310400,565049,16
1569902400,569974,17
1572580800,574816,18
1575176400,579665,19
1577854800,584477,20
1580533200,589431,21
1583038800,593957,22
1585713600,599365,23
1588305600,604776,24
1590984000,610420,25
1593576000,615554,26
1596254400,620875,27
1598932800,626060,28
1601524800,631369,29
1604203200,637124,30
1606798800,643625,31

File: tga-spectrum
1583038800,991751,
1585713600,995805,
1588305600,1000201,
1590984000,1005002,
1593576000,1009513,
1596254400,1014214,
1598932800,1018906,1
1601524800,1023693,2
1604203200,1028984,3
1606798800,1035056,4

File: xrd
1583038800,987923,
1585713600,992067,
1588305600,996488,
1590984000,1001308,
1593576000,219617,
1596254400,223387,
1598932800,227203,0
1601524800,230728,0
1604203200,235089,0
1606798800,240177,1

File: xrd-analysis
1593576000,1074264,
1596254400,1078266,
1598932800,1082472,
1601524800,1086792,
1604203200,1090796,
1606798800,1094911,
1609477200,1099149,1
1612155600,1103857,2
1614574800,1108386,3
1617249600,1115384,4
1619841600,1121392,5
1622520000,1126978,6
1625112000,1137569,7

File: xrd-cli
1564632000,853749,
1567310400,857408,
1569902400,861562,
1572580800,865650,
1575176400,869931,
1577854800,874134,
1580533200,878607,1
1583038800,882731,2
1585713600,887658,3
1588305600,892604,4
1590984000,897834,5
1593576000,902621,6
1596254400,907618,7
1598932800,912543,8
1601524800,917553,9
1604203200,923046,10
1606798800,929277,11