Folder: storage/npm/@crsincca

Note: npm/readme
1343793600,9013,
1346472000,9293,
1349064000,9564,
1351742400,9897,
1354338000,10266,
1357016400,10630,
1359694800,11135,1
1362114000,11608,2
1364788800,5312,0
1367380800,5840,0
1370059200,6279,0
1372651200,6823,0
1375329600,7392,0
1378008000,7904,1
1380600000,8543,2
1383278400,9123,3
1385874000,9741,4
1388552400,10413,5
1391230800,11196,6
1393650000,11905,7
1396324800,12740,8
1398916800,13564,9
1401595200,14472,10
1404187200,15396,11
1406865600,16251,12
1409544000,17233,13
1412136000,18138,14
1414814400,19208,15
1417410000,20185,16
1420088400,21147,17
1422766800,22295,18
1425186000,23310,19
1427860800,24352,20
1430452800,25423,21
1433131200,26616,22
1435723200,27840,23
1438401600,29292,24
1441080000,30700,25
1443672000,32067,26
1446350400,33484,27
1448946000,35031,28
1451624400,36671,29
1454302800,38195,30
1456808400,39708,31
1459483200,41486,32
1462075200,43252,33
1464753600,45000,34
1467345600,46593,35
1470024000,48239,36
1472702400,49955,37
1475294400,51525,38
1477972800,53324,39
1480568400,54976,40
1483246800,56588,41
1485925200,58285,42
1488344400,60115,43
1491019200,62228,44
1493611200,64114,45
1496289600,66076,46
1498881600,68114,47
1501560000,70232,48
1504238400,72246,49
1506830400,74079,50
1509508800,76285,51
1512104400,78365,52
1514782800,80359,53
1517461200,82823,54
1519880400,85009,55
1522555200,87366,56
1525147200,89680,57
1527825600,92037,58
1530417600,94480,59
1533096000,96764,60
1535774400,104538,0
1538366400,106936,1
1541044800,109413,2
1543640400,112291,3
1546318800,114638,0
1548997200,117352,1
1551416400,119954,2
1554091200,122938,3
1556683200,125692,4
1559361600,128694,5
1561953600,131258,6
1564632000,133974,7
1567310400,136665,8
1569902400,139449,9
1572580800,142098,10
1575176400,144720,11
1577854800,147415,12
1580533200,150097,13
1583038800,152532,14
1585713600,155395,15
1588305600,158371,16
1590984000,161346,17
1593576000,163962,18
1596254400,166693,19
1598932800,169484,20
1601524800,172246,21
1604203200,175644,22
1606798800,179830,23

File: xrd-data-provider-module
1588305600,1024018,
1590984000,1028304,
1593576000,1032476,
1596254400,1036836,
1598932800,1041246,
1601524800,1045768,
1604203200,1049914,1
1606798800,1054077,2
1609477200,1058413,3
1612155600,1063202,4
1614574800,1067803,5
1617249600,1074886,6
1619841600,1080959,7
1622520000,1086593,8
1625112000,1097343,9
1627790400,1102512,10

File: xrd-dispatch-module
1588305600,65892,
1590984000,68193,
1593576000,69246,
1596254400,70329,
1598932800,71388,
1601524800,72528,
1604203200,73566,1
1606798800,74580,2
1609477200,75633,3
1612155600,76904,4
1614574800,78005,5
1617249600,80931,6
1619841600,82934,7
1622520000,84512,8
1625112000,87488,9

File: xrd-graph-module
1588305600,1024021,
1590984000,1028307,
1593576000,1032479,
1596254400,1036839,
1598932800,1041249,
1601524800,1045771,
1604203200,1049917,1
1606798800,1054080,2
1609477200,1058416,3
1612155600,1063205,4
1614574800,1067806,5
1617249600,1074889,6
1619841600,1080962,7
1622520000,1086596,8
1625112000,1097346,9
1627790400,1102515,10

File: xrd-load-file-module
1588305600,1024009,
1590984000,1028296,
1593576000,1032468,
1596254400,1036828,
1598932800,1041238,
1601524800,1045760,
1604203200,1049906,1
1606798800,1054069,2
1609477200,1058405,3
1612155600,1063194,4
1614574800,1067795,5
1617249600,1074878,6
1619841600,1080951,7
1622520000,1086585,8
1625112000,1097335,9

File: xrd-main-gui-module
1588305600,1023951,
1590984000,1028238,
1593576000,1032410,
1596254400,1036770,
1598932800,1041181,
1601524800,1045703,
1604203200,1049849,1
1606798800,1054011,2
1609477200,1058347,3
1612155600,1063136,4
1614574800,1067737,5
1617249600,1074820,6
1619841600,1080893,7
1622520000,1086527,8
1625112000,1097277,9
1627790400,1102448,10

File: xrd-main-menu-module
1588305600,1024003,
1590984000,1028290,
1593576000,1032462,
1596254400,1036822,
1598932800,1041232,
1601524800,1045754,
1604203200,1049900,1
1606798800,1054063,2
1609477200,1058399,3
1612155600,1063188,4
1614574800,1067789,5
1617249600,1074872,6
1619841600,1080945,7
1622520000,1086579,8
1625112000,1097329,9
1627790400,1102499,10